Thông số của bộ lọc Thông cao
==================================================

Số hệ số (bậc của bộ lọc): 100
Tần số lấy mẫu: 100 Hz
Tần số Nyquist: 50.0 Hz

Đáp ứng xung h(k):
------------------------------
h(  0) =    0.0000000000
h(  1) =    0.0002532360
h(  2) =    0.0004683001
h(  3) =    0.0005958853
h(  4) =    0.0005914585
h(  5) =    0.0004262810
h(  6) =    0.0001018382
h(  7) =   -0.0003373509
h(  8) =   -0.0007995349
h(  9) =   -0.0011563429
h( 10) =   -0.0012705153
h( 11) =   -0.0010369046
h( 12) =   -0.0004264270
h( 13) =    0.0004816755
h( 14) =    0.0014939157
h( 15) =    0.0023323568
h( 16) =    0.0026996246
h( 17) =    0.0023666643
h( 18) =    0.0012603421
h( 19) =   -0.0004770787
h( 20) =   -0.0024815655
h( 21) =   -0.0042274499
h( 22) =   -0.0051494352
h( 23) =   -0.0048019018
h( 24) =   -0.0030149356
h( 25) =   -0.0000000000
h( 26) =    0.0036353297
h( 27) =    0.0069845623
h( 28) =    0.0090434873
h( 29) =    0.0089762384
h( 30) =    0.0063822491
h( 31) =    0.0014896080
h( 32) =   -0.0047909666
h( 33) =   -0.0109892614
h( 34) =   -0.0153713833
h( 35) =   -0.0163572766
h( 36) =   -0.0129699699
h( 37) =   -0.0052063388
h( 38) =    0.0057750142
h( 39) =    0.0177201149
h( 40) =    0.0276171027
h( 41) =    0.0322577011
h( 42) =    0.0289171125
h( 43) =    0.0160088942
h( 44) =   -0.0064351850
h( 45) =   -0.0365818607
h( 46) =   -0.0709724903
h( 47) =   -0.1050447656
h( 48) =   -0.1339089395
h( 49) =   -0.1532276747
h( 50) =    0.8401091690
h( 51) =   -0.1532276747
h( 52) =   -0.1339089395
h( 53) =   -0.1050447656
h( 54) =   -0.0709724903
h( 55) =   -0.0365818607
h( 56) =   -0.0064351850
h( 57) =    0.0160088942
h( 58) =    0.0289171125
h( 59) =    0.0322577011
h( 60) =    0.0276171027
h( 61) =    0.0177201149
h( 62) =    0.0057750142
h( 63) =   -0.0052063388
h( 64) =   -0.0129699699
h( 65) =   -0.0163572766
h( 66) =   -0.0153713833
h( 67) =   -0.0109892614
h( 68) =   -0.0047909666
h( 69) =    0.0014896080
h( 70) =    0.0063822491
h( 71) =    0.0089762384
h( 72) =    0.0090434873
h( 73) =    0.0069845623
h( 74) =    0.0036353297
h( 75) =   -0.0000000000
h( 76) =   -0.0030149356
h( 77) =   -0.0048019018
h( 78) =   -0.0051494352
h( 79) =   -0.0042274499
h( 80) =   -0.0024815655
h( 81) =   -0.0004770787
h( 82) =    0.0012603421
h( 83) =    0.0023666643
h( 84) =    0.0026996246
h( 85) =    0.0023323568
h( 86) =    0.0014939157
h( 87) =    0.0004816755
h( 88) =   -0.0004264270
h( 89) =   -0.0010369046
h( 90) =   -0.0012705153
h( 91) =   -0.0011563429
h( 92) =   -0.0007995349
h( 93) =   -0.0003373509
h( 94) =    0.0001018382
h( 95) =    0.0004262810
h( 96) =    0.0005914585
h( 97) =    0.0005958853
h( 98) =    0.0004683001
h( 99) =    0.0002532360
h(100) =    0.0000000000

Đáp ứng tần số H(z):
------------------------------
Tần số(Hz)  |H(z)|(dB)    Pha(độ)
--------------------------------------------------
     0.000      -54.914        0.000
     0.063      -55.082      -11.250
     0.125      -55.603      -22.500
     0.188      -56.520      -33.750
     0.250      -57.931      -45.000
     0.312      -60.033      -56.250
     0.375      -63.287      -67.500
     0.438      -69.191      -78.750
     0.500     -107.000       90.000
     0.562      -68.967       78.750
     0.625      -63.166       67.500
     0.688      -59.943       56.250
     0.750      -57.854       45.000
     0.812      -56.449       33.750
     0.875      -55.534       22.500
     0.938      -55.015       11.250
     1.000      -54.847       -0.000
     1.062      -55.015      -11.250
     1.125      -55.536      -22.500
     1.188      -56.456      -33.750
     1.250      -57.872      -45.000
     1.312      -59.985      -56.250
     1.375      -63.267      -67.500
     1.438      -69.267      -78.750
     1.500      -98.063       90.000
     1.562      -68.647       78.750
     1.625      -62.935       67.500
     1.688      -59.739       56.250
     1.750      -57.661       45.000
     1.812      -56.262       33.750
     1.875      -55.349       22.500
     1.938      -54.831       11.250
     2.000      -54.663       -0.000
     2.063      -54.831      -11.250
     2.125      -55.352      -22.500
     2.188      -56.272      -33.750
     2.250      -57.690      -45.000
     2.312      -59.808      -56.250
     2.375      -63.100      -67.500
     2.438      -69.137      -78.750
     2.500      -96.020       90.000
     2.563      -68.371       78.750
     2.625      -62.692       67.500
     2.688      -59.506       56.250
     2.750      -57.434       45.000
     2.812      -56.038       33.750
     2.875      -55.128       22.500
     2.937      -54.610       11.250
     3.000      -54.442       -0.000
     3.063      -54.611      -11.250
     3.125      -55.129      -22.500
     3.188      -56.044      -33.750
     3.250      -57.451      -45.000
     3.312      -59.546      -56.250
     3.375      -62.783      -67.500
     3.438      -68.633      -78.750
     3.500     -127.884      -90.000
     3.562      -68.659       78.750
     3.625      -62.807       67.500
     3.688      -59.573       56.250
     3.750      -57.484       45.000
     3.812      -56.083       33.750
     3.875      -55.173       22.500
     3.938      -54.659       11.250
     4.000      -54.493       -0.000
     4.062      -54.658      -11.250
     4.125      -55.164      -22.500
     4.188      -56.047      -33.750
     4.250      -57.387      -45.000
     4.312      -59.338      -56.250
     4.375      -62.245      -67.500
     4.438      -67.063      -78.750
     4.500      -79.460      -90.000
     4.563      -72.955       78.750
     4.625      -65.390       67.500
     4.688      -61.730       56.250
     4.750      -59.493       45.000
     4.812      -58.050       33.750
     4.875      -57.145       22.500
     4.938      -56.651       11.250
     5.000      -56.497       -0.000
     5.062      -56.639      -11.250
     5.125      -57.046      -22.500
     5.187      -57.690      -33.750
     5.250      -58.536      -45.000
     5.312      -59.529      -56.250
     5.375      -60.581      -67.500
     5.438      -61.553      -78.750
     5.500      -62.260      -90.000
     5.562      -62.514     -101.250
     5.625      -62.213     -112.500
     5.688      -61.409     -123.750
     5.750      -60.286     -135.000
     5.812      -59.071     -146.250
     5.875      -57.970     -157.500
     5.937      -57.164     -168.750
     6.000      -56.843     -180.000
     6.062      -57.289     -191.250
     6.125      -59.126     -202.500
     6.188      -64.710     -213.750
     6.250      -70.687      -45.000
     6.312      -55.864      -56.250
     6.375      -49.180      -67.500
     6.438      -44.440      -78.750
     6.500      -40.636      -90.000
     6.562      -37.405     -101.250
     6.625      -34.572     -112.500
     6.688      -32.037     -123.750
     6.750      -29.739     -135.000
     6.813      -27.635     -146.250
     6.875      -25.696     -157.500
     6.938      -23.899     -168.750
     7.000      -22.228     -180.000
     7.062      -20.668     -191.250
     7.125      -19.208     -202.500
     7.187      -17.840     -213.750
     7.250      -16.557     -225.000
     7.312      -15.350     -236.250
     7.375      -14.216     -247.500
     7.438      -13.149     -258.750
     7.500      -12.146     -270.000
     7.562      -11.201     -281.250
     7.625      -10.313     -292.500
     7.688       -9.478     -303.750
     7.750       -8.693     -315.000
     7.813       -7.956     -326.250
     7.875       -7.265     -337.500
     7.938       -6.618     -348.750
     8.000       -6.012     -360.000
     8.062       -5.445     -371.250
     8.125       -4.917     -382.500
     8.188       -4.426     -393.750
     8.250       -3.969     -405.000
     8.313       -3.546     -416.250
     8.375       -3.155     -427.500
     8.438       -2.794     -438.750
     8.500       -2.463     -450.000
     8.563       -2.159     -461.250
     8.625       -1.882     -472.500
     8.688       -1.631     -483.750
     8.750       -1.403     -495.000
     8.813       -1.198     -506.250
     8.875       -1.015     -517.500
     8.938       -0.851     -528.750
     9.000       -0.707     -540.000
     9.062       -0.580     -551.250
     9.125       -0.469     -562.500
     9.188       -0.374     -573.750
     9.250       -0.292     -585.000
     9.312       -0.223     -596.250
     9.375       -0.166     -607.500
     9.438       -0.118     -618.750
     9.500       -0.080     -630.000
     9.562       -0.050     -641.250
     9.625       -0.026     -652.500
     9.688       -0.008     -663.750
     9.750        0.004     -675.000
     9.812        0.013     -686.250
     9.875        0.018     -697.500
     9.938        0.021     -708.750
    10.000        0.022     -720.000
    10.063        0.021     -731.250
    10.125        0.019     -742.500
    10.188        0.017     -753.750
    10.250        0.015     -765.000
    10.312        0.013     -776.250
    10.375        0.011     -787.500
    10.437        0.009     -798.750
    10.500        0.008     -810.000
    10.562        0.007     -821.250
    10.625        0.006     -832.500
    10.688        0.006     -843.750
    10.750        0.006     -855.000
    10.813        0.006     -866.250
    10.875        0.006     -877.500
    10.937        0.006     -888.750
    11.000        0.006     -900.000
    11.063        0.006     -911.250
    11.125        0.006     -922.500
    11.188        0.005     -933.750
    11.250        0.005     -945.000
    11.313        0.004     -956.250
    11.375        0.003     -967.500
    11.438        0.002     -978.750
    11.500        0.000     -990.000
    11.562       -0.001    -1001.250
    11.625       -0.002    -1012.500
    11.687       -0.004    -1023.750
    11.750       -0.005    -1035.000
    11.812       -0.006    -1046.250
    11.875       -0.006    -1057.500
    11.938       -0.007    -1068.750
    12.000       -0.007    -1080.000
    12.062       -0.007    -1091.250
    12.125       -0.006    -1102.500
    12.188       -0.006    -1113.750
    12.250       -0.005    -1125.000
    12.313       -0.003    -1136.250
    12.375       -0.002    -1147.500
    12.438       -0.001    -1158.750
    12.500        0.001    -1170.000
    12.562        0.003    -1181.250
    12.625        0.004    -1192.500
    12.688        0.005    -1203.750
    12.750        0.007    -1215.000
    12.812        0.008    -1226.250
    12.875        0.008    -1237.500
    12.937        0.009    -1248.750
    13.000        0.009    -1260.000
    13.062        0.009    -1271.250
    13.125        0.008    -1282.500
    13.188        0.008    -1293.750
    13.250        0.007    -1305.000
    13.312        0.006    -1316.250
    13.375        0.004    -1327.500
    13.438        0.003    -1338.750
    13.500        0.001    -1350.000
    13.563       -0.000    -1361.250
    13.625       -0.001    -1372.500
    13.688       -0.003    -1383.750
    13.750       -0.004    -1395.000
    13.812       -0.005    -1406.250
    13.875       -0.005    -1417.500
    13.938       -0.006    -1428.750
    14.000       -0.006    -1440.000
    14.062       -0.006    -1451.250
    14.125       -0.005    -1462.500
    14.188       -0.005    -1473.750
    14.250       -0.004    -1485.000
    14.312       -0.003    -1496.250
    14.375       -0.002    -1507.500
    14.438       -0.000    -1518.750
    14.500        0.001    -1530.000
    14.562        0.002    -1541.250
    14.625        0.003    -1552.500
    14.688        0.004    -1563.750
    14.750        0.005    -1575.000
    14.813        0.006    -1586.250
    14.875        0.007    -1597.500
    14.938        0.007    -1608.750
    15.000        0.007    -1620.000
    15.063        0.007    -1631.250
    15.125        0.007    -1642.500
    15.188        0.006    -1653.750
    15.250        0.006    -1665.000
    15.312        0.005    -1676.250
    15.375        0.004    -1687.500
    15.438        0.003    -1698.750
    15.500        0.001    -1710.000
    15.562        0.000    -1721.250
    15.625       -0.001    -1732.500
    15.688       -0.002    -1743.750
    15.750       -0.003    -1755.000
    15.812       -0.003    -1766.250
    15.875       -0.004    -1777.500
    15.938       -0.004    -1788.750
    16.000       -0.004    -1800.000
    16.063       -0.004    -1811.250
    16.125       -0.004    -1822.500
    16.188       -0.003    -1833.750
    16.250       -0.003    -1845.000
    16.312       -0.002    -1856.250
    16.375       -0.001    -1867.500
    16.438       -0.000    -1878.750
    16.500        0.001    -1890.000
    16.563        0.002    -1901.250
    16.625        0.003    -1912.500
    16.688        0.004    -1923.750
    16.750        0.005    -1935.000
    16.812        0.005    -1946.250
    16.875        0.006    -1957.500
    16.938        0.006    -1968.750
    17.000        0.006    -1980.000
    17.063        0.006    -1991.250
    17.125        0.006    -2002.500
    17.188        0.005    -2013.750
    17.250        0.005    -2025.000
    17.312        0.004    -2036.250
    17.375        0.003    -2047.500
    17.438        0.002    -2058.750
    17.500        0.001    -2070.000
    17.562        0.000    -2081.250
    17.625       -0.000    -2092.500
    17.688       -0.001    -2103.750
    17.750       -0.002    -2115.000
    17.812       -0.002    -2126.250
    17.875       -0.003    -2137.500
    17.938       -0.003    -2148.750
    18.000       -0.003    -2160.000
    18.062       -0.003    -2171.250
    18.125       -0.003    -2182.500
    18.188       -0.002    -2193.750
    18.250       -0.002    -2205.000
    18.313       -0.001    -2216.250
    18.375       -0.001    -2227.500
    18.438        0.000    -2238.750
    18.500        0.001    -2250.000
    18.562        0.002    -2261.250
    18.625        0.003    -2272.500
    18.688        0.003    -2283.750
    18.750        0.004    -2295.000
    18.812        0.004    -2306.250
    18.875        0.005    -2317.500
    18.938        0.005    -2328.750
    19.000        0.005    -2340.000
    19.062        0.005    -2351.250
    19.125        0.005    -2362.500
    19.188        0.004    -2373.750
    19.250        0.004    -2385.000
    19.312        0.003    -2396.250
    19.375        0.003    -2407.500
    19.438        0.002    -2418.750
    19.500        0.001    -2430.000
    19.562        0.001    -2441.250
    19.625       -0.000    -2452.500
    19.688       -0.001    -2463.750
    19.750       -0.001    -2475.000
    19.812       -0.002    -2486.250
    19.875       -0.002    -2497.500
    19.938       -0.002    -2508.750
    20.000       -0.002    -2520.000
    20.062       -0.002    -2531.250
    20.125       -0.002    -2542.500
    20.188       -0.002    -2553.750
    20.250       -0.001    -2565.000
    20.312       -0.001    -2576.250
    20.375       -0.000    -2587.500
    20.438        0.000    -2598.750
    20.500        0.001    -2610.000
    20.562        0.002    -2621.250
    20.625        0.002    -2632.500
    20.688        0.003    -2643.750
    20.750        0.003    -2655.000
    20.812        0.004    -2666.250
    20.875        0.004    -2677.500
    20.938        0.004    -2688.750
    21.000        0.004    -2700.000
    21.062        0.004    -2711.250
    21.125        0.004    -2722.500
    21.188        0.004    -2733.750
    21.250        0.003    -2745.000
    21.312        0.003    -2756.250
    21.375        0.002    -2767.500
    21.438        0.002    -2778.750
    21.500        0.001    -2790.000
    21.562        0.001    -2801.250
    21.625        0.000    -2812.500
    21.688       -0.000    -2823.750
    21.750       -0.001    -2835.000
    21.812       -0.001    -2846.250
    21.875       -0.002    -2857.500
    21.938       -0.002    -2868.750
    22.000       -0.002    -2880.000
    22.063       -0.002    -2891.250
    22.125       -0.002    -2902.500
    22.188       -0.001    -2913.750
    22.250       -0.001    -2925.000
    22.312       -0.001    -2936.250
    22.375       -0.000    -2947.500
    22.438        0.001    -2958.750
    22.500        0.001    -2970.000
    22.562        0.002    -2981.250
    22.625        0.002    -2992.500
    22.688        0.003    -3003.750
    22.750        0.003    -3015.000
    22.812        0.003    -3026.250
    22.875        0.004    -3037.500
    22.938        0.004    -3048.750
    23.000        0.004    -3060.000
    23.062        0.004    -3071.250
    23.125        0.004    -3082.500
    23.188        0.003    -3093.750
    23.250        0.003    -3105.000
    23.312        0.003    -3116.250
    23.375        0.002    -3127.500
    23.438        0.002    -3138.750
    23.500        0.001    -3150.000
    23.562        0.001    -3161.250
    23.625        0.000    -3172.500
    23.688       -0.000    -3183.750
    23.750       -0.001    -3195.000
    23.813       -0.001    -3206.250
    23.875       -0.001    -3217.500
    23.938       -0.001    -3228.750
    24.000       -0.001    -3240.000
    24.063       -0.001    -3251.250
    24.125       -0.001    -3262.500
    24.188       -0.001    -3273.750
    24.250       -0.001    -3285.000
    24.312       -0.000    -3296.250
    24.375        0.000    -3307.500
    24.438        0.001    -3318.750
    24.500        0.001    -3330.000
    24.562        0.002    -3341.250
    24.625        0.002    -3352.500
    24.688        0.002    -3363.750
    24.750        0.003    -3375.000
    24.812        0.003    -3386.250
    24.875        0.003    -3397.500
    24.938        0.003    -3408.750
    25.000        0.003    -3420.000
    25.063        0.003    -3431.250
    25.125        0.003    -3442.500
    25.188        0.003    -3453.750
    25.250        0.003    -3465.000
    25.313        0.002    -3476.250
    25.375        0.002    -3487.500
    25.438        0.002    -3498.750
    25.500        0.001    -3510.000
    25.562        0.001    -3521.250
    25.625        0.000    -3532.500
    25.688       -0.000    -3543.750
    25.750       -0.000    -3555.000
    25.812       -0.001    -3566.250
    25.875       -0.001    -3577.500
    25.938       -0.001    -3588.750
    26.000       -0.001    -3600.000
    26.062       -0.001    -3611.250
    26.125       -0.001    -3622.500
    26.187       -0.001    -3633.750
    26.250       -0.000    -3645.000
    26.313       -0.000    -3656.250
    26.375        0.000    -3667.500
    26.438        0.001    -3678.750
    26.500        0.001    -3690.000
    26.563        0.002    -3701.250
    26.625        0.002    -3712.500
    26.688        0.002    -3723.750
    26.750        0.003    -3735.000
    26.812        0.003    -3746.250
    26.875        0.003    -3757.500
    26.938        0.003    -3768.750
    27.000        0.003    -3780.000
    27.062        0.003    -3791.250
    27.125        0.003    -3802.500
    27.188        0.003    -3813.750
    27.250        0.003    -3825.000
    27.312        0.002    -3836.250
    27.375        0.002    -3847.500
    27.438        0.002    -3858.750
    27.500        0.001    -3870.000
    27.563        0.001    -3881.250
    27.625        0.000    -3892.500
    27.688        0.000    -3903.750
    27.750       -0.000    -3915.000
    27.813       -0.000    -3926.250
    27.875       -0.001    -3937.500
    27.938       -0.001    -3948.750
    28.000       -0.001    -3960.000
    28.063       -0.001    -3971.250
    28.125       -0.001    -3982.500
    28.188       -0.001    -3993.750
    28.250       -0.000    -4005.000
    28.312        0.000    -4016.250
    28.375        0.000    -4027.500
    28.437        0.001    -4038.750
    28.500        0.001    -4050.000
    28.562        0.001    -4061.250
    28.625        0.002    -4072.500
    28.687        0.002    -4083.750
    28.750        0.002    -4095.000
    28.813        0.003    -4106.250
    28.875        0.003    -4117.500
    28.938        0.003    -4128.750
    29.000        0.003    -4140.000
    29.063        0.003    -4151.250
    29.125        0.003    -4162.500
    29.188        0.003    -4173.750
    29.250        0.002    -4185.000
    29.313        0.002    -4196.250
    29.375        0.002    -4207.500
    29.438        0.002    -4218.750
    29.500        0.001    -4230.000
    29.562        0.001    -4241.250
    29.625        0.000    -4252.500
    29.688        0.000    -4263.750
    29.750       -0.000    -4275.000
    29.812       -0.000    -4286.250
    29.875       -0.001    -4297.500
    29.938       -0.001    -4308.750
    30.000       -0.001    -4320.000
    30.063       -0.001    -4331.250
    30.125       -0.001    -4342.500
    30.188       -0.000    -4353.750
    30.250       -0.000    -4365.000
    30.313        0.000    -4376.250
    30.375        0.000    -4387.500
    30.438        0.001    -4398.750
    30.500        0.001    -4410.000
    30.563        0.001    -4421.250
    30.625        0.002    -4432.500
    30.687        0.002    -4443.750
    30.750        0.002    -4455.000
    30.812        0.003    -4466.250
    30.875        0.003    -4477.500
    30.937        0.003    -4488.750
    31.000        0.003    -4500.000
    31.062        0.003    -4511.250
    31.125        0.003    -4522.500
    31.187        0.003    -4533.750
    31.250        0.002    -4545.000
    31.313        0.002    -4556.250
    31.375        0.002    -4567.500
    31.438        0.001    -4578.750
    31.500        0.001    -4590.000
    31.563        0.001    -4601.250
    31.625        0.001    -4612.500
    31.688        0.000    -4623.750
    31.750       -0.000    -4635.000
    31.812       -0.000    -4646.250
    31.875       -0.000    -4657.500
    31.937       -0.000    -4668.750
    32.000       -0.000    -4680.000
    32.062       -0.000    -4691.250
    32.125       -0.000    -4702.500
    32.188       -0.000    -4713.750
    32.250       -0.000    -4725.000
    32.313        0.000    -4736.250
    32.375        0.001    -4747.500
    32.438        0.001    -4758.750
    32.500        0.001    -4770.000
    32.563        0.001    -4781.250
    32.625        0.002    -4792.500
    32.688        0.002    -4803.750
    32.750        0.002    -4815.000
    32.813        0.002    -4826.250
    32.875        0.003    -4837.500
    32.938        0.003    -4848.750
    33.000        0.003    -4860.000
    33.062        0.003    -4871.250
    33.125        0.003    -4882.500
    33.188        0.002    -4893.750
    33.250        0.002    -4905.000
    33.312        0.002    -4916.250
    33.375        0.002    -4927.500
    33.438        0.001    -4938.750
    33.500        0.001    -4950.000
    33.563        0.001    -4961.250
    33.625        0.001    -4972.500
    33.688        0.000    -4983.750
    33.750        0.000    -4995.000
    33.813       -0.000    -5006.250
    33.875       -0.000    -5017.500
    33.938       -0.000    -5028.750
    34.000       -0.000    -5040.000
    34.062       -0.000    -5051.250
    34.125       -0.000    -5062.500
    34.188       -0.000    -5073.750
    34.250        0.000    -5085.000
    34.312        0.000    -5096.250
    34.375        0.001    -5107.500
    34.438        0.001    -5118.750
    34.500        0.001    -5130.000
    34.562        0.001    -5141.250
    34.625        0.002    -5152.500
    34.688        0.002    -5163.750
    34.750        0.002    -5175.000
    34.813        0.002    -5186.250
    34.875        0.002    -5197.500
    34.938        0.003    -5208.750
    35.000        0.003    -5220.000
    35.063        0.003    -5231.250
    35.125        0.002    -5242.500
    35.188        0.002    -5253.750
    35.250        0.002    -5265.000
    35.312        0.002    -5276.250
    35.375        0.002    -5287.500
    35.438        0.001    -5298.750
    35.500        0.001    -5310.000
    35.562        0.001    -5321.250
    35.625        0.001    -5332.500
    35.688        0.000    -5343.750
    35.750        0.000    -5355.000
    35.812       -0.000    -5366.250
    35.875       -0.000    -5377.500
    35.938       -0.000    -5388.750
    36.000       -0.000    -5400.000
    36.063       -0.000    -5411.250
    36.125       -0.000    -5422.500
    36.188       -0.000    -5433.750
    36.250        0.000    -5445.000
    36.312        0.000    -5456.250
    36.375        0.001    -5467.500
    36.438        0.001    -5478.750
    36.500        0.001    -5490.000
    36.562        0.001    -5501.250
    36.625        0.002    -5512.500
    36.688        0.002    -5523.750
    36.750        0.002    -5535.000
    36.812        0.002    -5546.250
    36.875        0.002    -5557.500
    36.938        0.002    -5568.750
    37.000        0.002    -5580.000
    37.062        0.002    -5591.250
    37.125        0.002    -5602.500
    37.188        0.002    -5613.750
    37.250        0.002    -5625.000
    37.313        0.002    -5636.250
    37.375        0.002    -5647.500
    37.438        0.001    -5658.750
    37.500        0.001    -5670.000
    37.562        0.001    -5681.250
    37.625        0.001    -5692.500
    37.688        0.000    -5703.750
    37.750        0.000    -5715.000
    37.812        0.000    -5726.250
    37.875       -0.000    -5737.500
    37.938       -0.000    -5748.750
    38.000       -0.000    -5760.000
    38.062       -0.000    -5771.250
    38.125       -0.000    -5782.500
    38.188        0.000    -5793.750
    38.250        0.000    -5805.000
    38.312        0.000    -5816.250
    38.375        0.001    -5827.500
    38.438        0.001    -5838.750
    38.500        0.001    -5850.000
    38.562        0.001    -5861.250
    38.625        0.002    -5872.500
    38.688        0.002    -5883.750
    38.750        0.002    -5895.000
    38.812        0.002    -5906.250
    38.875        0.002    -5917.500
    38.938        0.002    -5928.750
    39.000        0.002    -5940.000
    39.062        0.002    -5951.250
    39.125        0.002    -5962.500
    39.188        0.002    -5973.750
    39.250        0.002    -5985.000
    39.312        0.002    -5996.250
    39.375        0.002    -6007.500
    39.438        0.001    -6018.750
    39.500        0.001    -6030.000
    39.562        0.001    -6041.250
    39.625        0.001    -6052.500
    39.688        0.000    -6063.750
    39.750        0.000    -6075.000
    39.812        0.000    -6086.250
    39.875       -0.000    -6097.500
    39.938       -0.000    -6108.750
    40.000       -0.000    -6120.000
    40.062       -0.000    -6131.250
    40.125       -0.000    -6142.500
    40.188        0.000    -6153.750
    40.250        0.000    -6165.000
    40.312        0.000    -6176.250
    40.375        0.001    -6187.500
    40.438        0.001    -6198.750
    40.500        0.001    -6210.000
    40.562        0.001    -6221.250
    40.625        0.002    -6232.500
    40.688        0.002    -6243.750
    40.750        0.002    -6255.000
    40.813        0.002    -6266.250
    40.875        0.002    -6277.500
    40.938        0.002    -6288.750
    41.000        0.002    -6300.000
    41.062        0.002    -6311.250
    41.125        0.002    -6322.500
    41.188        0.002    -6333.750
    41.250        0.002    -6345.000
    41.312        0.002    -6356.250
    41.375        0.002    -6367.500
    41.438        0.001    -6378.750
    41.500        0.001    -6390.000
    41.562        0.001    -6401.250
    41.625        0.001    -6412.500
    41.688        0.000    -6423.750
    41.750        0.000    -6435.000
    41.812        0.000    -6446.250
    41.875        0.000    -6457.500
    41.937       -0.000    -6468.750
    42.000       -0.000    -6480.000
    42.063       -0.000    -6491.250
    42.125        0.000    -6502.500
    42.188        0.000    -6513.750
    42.250        0.000    -6525.000
    42.313        0.000    -6536.250
    42.375        0.001    -6547.500
    42.438        0.001    -6558.750
    42.500        0.001    -6570.000
    42.563        0.001    -6581.250
    42.625        0.002    -6592.500
    42.688        0.002    -6603.750
    42.750        0.002    -6615.000
    42.812        0.002    -6626.250
    42.875        0.002    -6637.500
    42.938        0.002    -6648.750
    43.000        0.002    -6660.000
    43.062        0.002    -6671.250
    43.125        0.002    -6682.500
    43.188        0.002    -6693.750
    43.250        0.002    -6705.000
    43.313        0.002    -6716.250
    43.375        0.002    -6727.500
    43.438        0.001    -6738.750
    43.500        0.001    -6750.000
    43.563        0.001    -6761.250
    43.625        0.001    -6772.500
    43.688        0.000    -6783.750
    43.750        0.000    -6795.000
    43.813        0.000    -6806.250
    43.875        0.000    -6817.500
    43.938       -0.000    -6828.750
    44.000       -0.000    -6840.000
    44.063       -0.000    -6851.250
    44.125        0.000    -6862.500
    44.188        0.000    -6873.750
    44.250        0.000    -6885.000
    44.313        0.000    -6896.250
    44.375        0.001    -6907.500
    44.438        0.001    -6918.750
    44.500        0.001    -6930.000
    44.563        0.001    -6941.250
    44.625        0.002    -6952.500
    44.688        0.002    -6963.750
    44.750        0.002    -6975.000
    44.813        0.002    -6986.250
    44.875        0.002    -6997.500
    44.938        0.002    -7008.750
    45.000        0.002    -7020.000
    45.062        0.002    -7031.250
    45.125        0.002    -7042.500
    45.188        0.002    -7053.750
    45.250        0.002    -7065.000
    45.312        0.002    -7076.250
    45.375        0.002    -7087.500
    45.438        0.001    -7098.750
    45.500        0.001    -7110.000
    45.562        0.001    -7121.250
    45.625        0.001    -7132.500
    45.688        0.000    -7143.750
    45.750        0.000    -7155.000
    45.813        0.000    -7166.250
    45.875        0.000    -7177.500
    45.938        0.000    -7188.750
    46.000       -0.000    -7200.000
    46.063        0.000    -7211.250
    46.125        0.000    -7222.500
    46.188        0.000    -7233.750
    46.250        0.000    -7245.000
    46.312        0.000    -7256.250
    46.375        0.001    -7267.500
    46.438        0.001    -7278.750
    46.500        0.001    -7290.000
    46.562        0.001    -7301.250
    46.625        0.002    -7312.500
    46.688        0.002    -7323.750
    46.750        0.002    -7335.000
    46.812        0.002    -7346.250
    46.875        0.002    -7357.500
    46.938        0.002    -7368.750
    47.000        0.002    -7380.000
    47.063        0.002    -7391.250
    47.125        0.002    -7402.500
    47.188        0.002    -7413.750
    47.250        0.002    -7425.000
    47.312        0.002    -7436.250
    47.375        0.002    -7447.500
    47.438        0.001    -7458.750
    47.500        0.001    -7470.000
    47.562        0.001    -7481.250
    47.625        0.001    -7492.500
    47.688        0.000    -7503.750
    47.750        0.000    -7515.000
    47.812        0.000    -7526.250
    47.875        0.000    -7537.500
    47.938        0.000    -7548.750
    48.000       -0.000    -7560.000
    48.062        0.000    -7571.250
    48.125        0.000    -7582.500
    48.188        0.000    -7593.750
    48.250        0.000    -7605.000
    48.313        0.000    -7616.250
    48.375        0.001    -7627.500
    48.438        0.001    -7638.750
    48.500        0.001    -7650.000
    48.563        0.001    -7661.250
    48.625        0.002    -7672.500
    48.688        0.002    -7683.750
    48.750        0.002    -7695.000
    48.813        0.002    -7706.250
    48.875        0.002    -7717.500
    48.938        0.002    -7728.750
    49.000        0.002    -7740.000
    49.063        0.002    -7751.250
    49.125        0.002    -7762.500
    49.188        0.002    -7773.750
    49.250        0.002    -7785.000
    49.313        0.002    -7796.250
    49.375        0.002    -7807.500
    49.438        0.001    -7818.750
    49.500        0.001    -7830.000
    49.562        0.001    -7841.250
    49.625        0.001    -7852.500
    49.688        0.001    -7863.750
    49.750        0.000    -7875.000
    49.812        0.000    -7886.250
    49.875        0.000    -7897.500
    49.938        0.000    -7908.750

Các thông số quan trọng:
------------------------------
Độ lợi lớn nhất (dB): 0.02
Độ suy giảm lớn nhất (dB): -127.88
Tần số cắt -3dB (Hz): 8.41 - 49.99
